 Al Density=2.6989 Thickness=2.50000E-02 microns
 Photon Energy (eV), Transmission
    10.000      0.37519E-01
    17.980      0.91238    
    25.960      0.94225    
    33.940      0.94071    
    41.920      0.94463    
    49.900      0.95311    
    57.880      0.96371    
    65.860      0.96553    
    73.840      0.63313    
    81.820      0.55632    
    89.800      0.50621    
    97.780      0.48820    
    105.76      0.47281    
    113.74      0.46220    
    121.72      0.45225    
    129.70      0.46189    
    137.68      0.48117    
    145.66      0.49910    
    153.64      0.51759    
    161.62      0.53757    
    169.60      0.55618    
    177.58      0.57404    
    185.56      0.60218    
    193.54      0.63032    
    201.52      0.65603    
    209.50      0.67981    
    217.48      0.70150    
    225.46      0.72075    
    233.44      0.73632    
    241.42      0.75069    
    249.40      0.76398    
    257.38      0.77627    
    265.36      0.78777    
    273.34      0.80052    
    281.32      0.81308    
    289.30      0.82461    
    297.28      0.83522    
    305.26      0.84498    
    313.24      0.85399    
    321.22      0.86231    
    329.20      0.87001    
    337.18      0.87713    
    345.16      0.88374    
    353.14      0.88988    
    361.12      0.89542    
    369.10      0.90026    
    377.08      0.90475    
    385.06      0.90897    
    393.04      0.91292    
    401.02      0.91664    
    409.00      0.92013    
    416.98      0.92343    
    424.96      0.92653    
    432.94      0.92946    
    440.92      0.93237    
    448.90      0.93521    
    456.88      0.93789    
    464.86      0.94041    
    472.84      0.94280    
    480.82      0.94506    
    488.80      0.94719    
    496.78      0.94923    
    504.76      0.95117    
    512.74      0.95304    
    520.72      0.95482    
    528.70      0.95650    
    536.68      0.95809    
    544.66      0.95960    
    552.64      0.96103    
    560.62      0.96242    
    568.60      0.96376    
    576.58      0.96505    
    584.56      0.96628    
    592.54      0.96745    
    600.52      0.96857    
    608.50      0.96964    
    616.48      0.97066    
    624.46      0.97163    
    632.44      0.97257    
    640.42      0.97349    
    648.40      0.97438    
    656.38      0.97524    
    664.36      0.97607    
    672.34      0.97684    
    680.32      0.97754    
    688.30      0.97819    
    696.28      0.97880    
    704.26      0.97940    
    712.24      0.97999    
    720.22      0.98057    
    728.20      0.98113    
    736.18      0.98167    
    744.16      0.98219    
    752.14      0.98269    
    760.12      0.98317    
    768.10      0.98363    
    776.08      0.98408    
    784.06      0.98451    
    792.04      0.98493    
    800.02      0.98533    
    808.00      0.98572    
    815.98      0.98610    
    823.96      0.98646    
    831.94      0.98681    
    839.92      0.98714    
    847.90      0.98747    
    855.88      0.98778    
    863.86      0.98809    
    871.84      0.98838    
    879.82      0.98867    
    887.80      0.98894    
    895.78      0.98921    
    903.76      0.98947    
    911.74      0.98971    
    919.72      0.98996    
    927.70      0.99019    
    935.68      0.99042    
    943.66      0.99064    
    951.64      0.99085    
    959.62      0.99106    
    967.60      0.99126    
    975.58      0.99145    
    983.56      0.99164    
    991.54      0.99182    
    999.52      0.99200    
    1007.5      0.99217    
    1015.5      0.99233    
    1023.5      0.99249    
    1031.4      0.99264    
    1039.4      0.99280    
    1047.4      0.99294    
    1055.4      0.99309    
    1063.4      0.99323    
    1071.3      0.99337    
    1079.3      0.99350    
    1087.3      0.99363    
    1095.3      0.99376    
    1103.3      0.99388    
    1111.2      0.99400    
    1119.2      0.99412    
    1127.2      0.99423    
    1135.2      0.99434    
    1143.2      0.99445    
    1151.1      0.99456    
    1159.1      0.99466    
    1167.1      0.99476    
    1175.1      0.99486    
    1183.1      0.99495    
    1191.0      0.99505    
    1199.0      0.99514    
    1207.0      0.99522    
    1215.0      0.99531    
    1223.0      0.99539    
    1230.9      0.99548    
    1238.9      0.99555    
    1246.9      0.99563    
    1254.9      0.99571    
    1262.9      0.99578    
    1270.8      0.99585    
    1278.8      0.99592    
    1286.8      0.99599    
    1294.8      0.99606    
    1302.8      0.99612    
    1310.7      0.99618    
    1318.7      0.99625    
    1326.7      0.99631    
    1334.7      0.99637    
    1342.7      0.99642    
    1350.6      0.99648    
    1358.6      0.99654    
    1366.6      0.99659    
    1374.6      0.99664    
    1382.6      0.99669    
    1390.5      0.99675    
    1398.5      0.99680    
    1406.5      0.99684    
    1414.5      0.99689    
    1422.5      0.99694    
    1430.4      0.99698    
    1438.4      0.99703    
    1446.4      0.99707    
    1454.4      0.99712    
    1462.4      0.99716    
    1470.3      0.99720    
    1478.3      0.99724    
    1486.3      0.99728    
    1494.3      0.99732    
    1502.3      0.99736    
    1510.2      0.99740    
    1518.2      0.99744    
    1526.2      0.99748    
    1534.2      0.99752    
    1542.2      0.99756    
    1550.1      0.99760    
    1558.1      0.99763    
    1566.1      0.97255    
    1574.1      0.97287    
    1582.1      0.97319    
    1590.0      0.97350    
    1598.0      0.97381    
    1606.0      0.97411    
    1614.0      0.97441    
    1622.0      0.97470    
    1629.9      0.97499    
    1637.9      0.97527    
    1645.9      0.97555    
    1653.9      0.97583    
    1661.9      0.97610    
    1669.8      0.97636    
    1677.8      0.97662    
    1685.8      0.97688    
    1693.8      0.97713    
    1701.8      0.97738    
    1709.7      0.97763    
    1717.7      0.97787    
    1725.7      0.97811    
    1733.7      0.97835    
    1741.7      0.97859    
    1749.6      0.97883    
    1757.6      0.97906    
    1765.6      0.97929    
    1773.6      0.97952    
    1781.6      0.97974    
    1789.5      0.97996    
    1797.5      0.98018    
    1805.5      0.98039    
    1813.5      0.98060    
    1821.5      0.98081    
    1829.4      0.98102    
    1837.4      0.98122    
    1845.4      0.98142    
    1853.4      0.98162    
    1861.4      0.98181    
    1869.3      0.98200    
    1877.3      0.98219    
    1885.3      0.98237    
    1893.3      0.98256    
    1901.3      0.98274    
    1909.2      0.98291    
    1917.2      0.98309    
    1925.2      0.98326    
    1933.2      0.98343    
    1941.2      0.98360    
    1949.1      0.98376    
    1957.1      0.98392    
    1965.1      0.98408    
    1973.1      0.98424    
    1981.1      0.98440    
    1989.0      0.98455    
    1997.0      0.98470    
    2005.0      0.98485    
    2013.0      0.98500    
    2021.0      0.98514    
    2028.9      0.98528    
    2036.9      0.98543    
    2044.9      0.98557    
    2052.9      0.98571    
    2060.9      0.98585    
    2068.8      0.98599    
    2076.8      0.98613    
    2084.8      0.98626    
    2092.8      0.98639    
    2100.8      0.98652    
    2108.7      0.98665    
    2116.7      0.98678    
    2124.7      0.98691    
    2132.7      0.98703    
    2140.7      0.98716    
    2148.6      0.98728    
    2156.6      0.98740    
    2164.6      0.98752    
    2172.6      0.98763    
    2180.6      0.98775    
    2188.5      0.98786    
    2196.5      0.98798    
    2204.5      0.98809    
    2212.5      0.98820    
    2220.5      0.98831    
    2228.4      0.98842    
    2236.4      0.98852    
    2244.4      0.98863    
    2252.4      0.98873    
    2260.4      0.98883    
    2268.3      0.98894    
    2276.3      0.98904    
    2284.3      0.98914    
    2292.3      0.98923    
    2300.3      0.98933    
    2308.2      0.98943    
    2316.2      0.98952    
    2324.2      0.98961    
    2332.2      0.98971    
    2340.2      0.98980    
    2348.1      0.98989    
    2356.1      0.98998    
    2364.1      0.99007    
    2372.1      0.99015    
    2380.1      0.99024    
    2388.0      0.99033    
    2396.0      0.99041    
    2404.0      0.99049    
    2412.0      0.99058    
    2420.0      0.99066    
    2427.9      0.99074    
    2435.9      0.99082    
    2443.9      0.99090    
    2451.9      0.99097    
    2459.9      0.99105    
    2467.8      0.99113    
    2475.8      0.99120    
    2483.8      0.99128    
    2491.8      0.99135    
    2499.8      0.99142    
    2507.7      0.99150    
    2515.7      0.99157    
    2523.7      0.99164    
    2531.7      0.99171    
    2539.7      0.99178    
    2547.6      0.99184    
    2555.6      0.99191    
    2563.6      0.99198    
    2571.6      0.99204    
    2579.6      0.99211    
    2587.5      0.99217    
    2595.5      0.99224    
    2603.5      0.99230    
    2611.5      0.99236    
    2619.5      0.99243    
    2627.4      0.99249    
    2635.4      0.99255    
    2643.4      0.99261    
    2651.4      0.99267    
    2659.4      0.99273    
    2667.3      0.99278    
    2675.3      0.99284    
    2683.3      0.99290    
    2691.3      0.99295    
    2699.3      0.99301    
    2707.2      0.99307    
    2715.2      0.99312    
    2723.2      0.99317    
    2731.2      0.99323    
    2739.2      0.99328    
    2747.1      0.99333    
    2755.1      0.99338    
    2763.1      0.99344    
    2771.1      0.99349    
    2779.1      0.99354    
    2787.0      0.99359    
    2795.0      0.99364    
    2803.0      0.99368    
    2811.0      0.99373    
    2819.0      0.99378    
    2826.9      0.99383    
    2834.9      0.99387    
    2842.9      0.99392    
    2850.9      0.99397    
    2858.9      0.99401    
    2866.8      0.99406    
    2874.8      0.99410    
    2882.8      0.99415    
    2890.8      0.99419    
    2898.8      0.99423    
    2906.7      0.99428    
    2914.7      0.99432    
    2922.7      0.99436    
    2930.7      0.99440    
    2938.7      0.99444    
    2946.6      0.99448    
    2954.6      0.99452    
    2962.6      0.99456    
    2970.6      0.99460    
    2978.6      0.99464    
    2986.5      0.99468    
    2994.5      0.99472    
    3002.5      0.99476    
    3010.5      0.99480    
    3018.5      0.99483    
    3026.4      0.99487    
    3034.4      0.99491    
    3042.4      0.99494    
    3050.4      0.99498    
    3058.4      0.99502    
    3066.3      0.99505    
    3074.3      0.99509    
    3082.3      0.99512    
    3090.3      0.99516    
    3098.3      0.99519    
    3106.2      0.99522    
    3114.2      0.99526    
    3122.2      0.99529    
    3130.2      0.99532    
    3138.2      0.99536    
    3146.1      0.99539    
    3154.1      0.99542    
    3162.1      0.99545    
    3170.1      0.99548    
    3178.1      0.99551    
    3186.0      0.99554    
    3194.0      0.99557    
    3202.0      0.99561    
    3210.0      0.99564    
    3218.0      0.99566    
    3225.9      0.99569    
    3233.9      0.99572    
    3241.9      0.99575    
    3249.9      0.99578    
    3257.9      0.99581    
    3265.8      0.99584    
    3273.8      0.99587    
    3281.8      0.99589    
    3289.8      0.99592    
    3297.8      0.99595    
    3305.7      0.99597    
    3313.7      0.99600    
    3321.7      0.99603    
    3329.7      0.99605    
    3337.7      0.99608    
    3345.6      0.99611    
    3353.6      0.99613    
    3361.6      0.99616    
    3369.6      0.99618    
    3377.6      0.99621    
    3385.5      0.99623    
    3393.5      0.99626    
    3401.5      0.99628    
    3409.5      0.99630    
    3417.5      0.99633    
    3425.4      0.99635    
    3433.4      0.99637    
    3441.4      0.99640    
    3449.4      0.99642    
    3457.4      0.99644    
    3465.3      0.99647    
    3473.3      0.99649    
    3481.3      0.99651    
    3489.3      0.99653    
    3497.3      0.99656    
    3505.2      0.99658    
    3513.2      0.99660    
    3521.2      0.99662    
    3529.2      0.99664    
    3537.2      0.99666    
    3545.1      0.99668    
    3553.1      0.99670    
    3561.1      0.99672    
    3569.1      0.99674    
    3577.1      0.99676    
    3585.0      0.99678    
    3593.0      0.99680    
    3601.0      0.99682    
    3609.0      0.99684    
    3617.0      0.99686    
    3624.9      0.99688    
    3632.9      0.99690    
    3640.9      0.99692    
    3648.9      0.99694    
    3656.9      0.99696    
    3664.8      0.99698    
    3672.8      0.99699    
    3680.8      0.99701    
    3688.8      0.99703    
    3696.8      0.99705    
    3704.7      0.99707    
    3712.7      0.99708    
    3720.7      0.99710    
    3728.7      0.99712    
    3736.7      0.99714    
    3744.6      0.99715    
    3752.6      0.99717    
    3760.6      0.99719    
    3768.6      0.99720    
    3776.6      0.99722    
    3784.5      0.99724    
    3792.5      0.99725    
    3800.5      0.99727    
    3808.5      0.99728    
    3816.5      0.99730    
    3824.4      0.99732    
    3832.4      0.99733    
    3840.4      0.99735    
    3848.4      0.99736    
    3856.4      0.99738    
    3864.3      0.99739    
    3872.3      0.99741    
    3880.3      0.99742    
    3888.3      0.99744    
    3896.3      0.99745    
    3904.2      0.99747    
    3912.2      0.99748    
    3920.2      0.99750    
    3928.2      0.99751    
    3936.2      0.99752    
    3944.1      0.99754    
    3952.1      0.99755    
    3960.1      0.99757    
    3968.1      0.99758    
    3976.1      0.99759    
    3984.0      0.99761    
    3992.0      0.99762    
    4000.0      0.99763    